File: l_d_test82.csv
,Axial Displacement (mm),Axial Force (kN)
0,-9.179688e-05,0.02320006
6,0.0014375,0.03456696
12,0.003898438,0.0486612
18,0.005535156,0.05970758
24,0.006896485,0.06536919
30,0.009076172,0.07717515
36,0.01089649,0.08393212
42,0.01289844,0.09544265
48,0.01485742,0.1037849
54,0.01639844,0.1091173
60,0.01829688,0.1183119
66,0.01989844,0.1241185
72,0.02189844,0.1321761
78,0.02339844,0.1366339
84,0.02539844,0.1474482
90,0.02689844,0.1513624
96,0.02859766,0.1558428
102,0.03045508,0.1641441
108,0.03288086,0.1729181
114,0.03439258,0.176231
120,0.03609766,0.1836574
126,0.03789844,0.1901293
132,0.03973047,0.1943305
138,0.04139649,0.2013452
144,0.04339844,0.2071106
150,0.04539844,0.2139499
156,0.04679688,0.2151613
162,0.04889844,0.2245608
168,0.05047461,0.2290005
174,0.05239844,0.2320059
180,0.05417774,0.2382638
186,0.05589649,0.2435309
192,0.05789844,0.2495594
198,0.05959766,0.2532334
204,0.06139844,0.2573393
210,0.06339649,0.2624369
216,0.06489649,0.2656223
222,0.06689844,0.272054
228,0.06839649,0.2751807
234,0.07039844,0.2786039
240,0.07239649,0.2834688
246,0.07389649,0.2871853
252,0.07589844,0.2949253
258,0.07789454,0.2976813
264,0.07909766,0.2981039
270,0.08139844,0.3057171
276,0.08289649,0.3075784
282,0.08489844,0.3136761
288,0.08689649,0.3171225
294,0.08839844,0.3180382
300,0.08993946,0.3223015
306,0.09189649,0.3241848
312,0.09389649,0.3311694
318,0.09539844,0.3309912
324,0.09739845,0.3372244
330,0.09939844,0.3402242
336,0.1008965,0.3414549
342,0.1028984,0.3471306
348,0.1043965,0.3494484
354,0.1063984,0.353793
360,0.1079063,0.3553119
366,0.1098984,0.359703
372,0.1114063,0.3596059
378,0.1133965,0.3646517
384,0.1153984,0.3689218
390,0.1173984,0.3711939
396,0.1188984,0.3716825
402,0.1204746,0.3741463
408,0.1223965,0.3787222
414,0.1239199,0.3785259
420,0.1263984,0.3852775
426,0.1278965,0.3853471
432,0.1298984,0.3883814
438,0.1313965,0.3909333
444,0.1333965,0.3939306
450,0.1353984,0.3969295
456,0.1368965,0.3970914
462,0.1388945,0.3990389
468,0.1406777,0.4028307
474,0.1423984,0.404011
480,0.1443965,0.408079
486,0.1458965,0.4083452
492,0.1474082,0.4075171
498,0.1493984,0.4112068
504,0.1513985,0.4130434
510,0.1532188,0.415189
516,0.1548965,0.4159973
522,0.1566582,0.4181242
528,0.1583984,0.420958
534,0.1603984,0.4237469
540,0.1618965,0.4232189
546,0.1641582,0.427117
552,0.1655606,0.4258368
558,0.1678281,0.4297001
564,0.1693984,0.4313157
570,0.1713984,0.4345644
576,0.1728984,0.4338573
582,0.1748965,0.4354703
588,0.1763965,0.4349987
594,0.1788984,0.4416404
600,0.1803984,0.4400929
606,0.1818965,0.4401119
612,0.1833984,0.4394605
618,0.1856777,0.4433312
624,0.1873984,0.4455075
630,0.1893985,0.4453939
636,0.1908965,0.4465581
642,0.1928008,0.4472496
648,0.1943965,0.4487306
654,0.1963613,0.4489277
660,0.1979668,0.4509286
666,0.1998985,0.4522599
672,0.2018984,0.4560491
678,0.2033965,0.4541973
684,0.2053984,0.4570028
690,0.206916,0.4563718
696,0.2088965,0.4593986
702,0.2108984,0.4592276
708,0.2124004,0.4603114
714,0.2143984,0.4606252
720,0.2159395,0.4617002
726,0.2178984,0.4626103
732,0.2198984,0.4641221
738,0.2213984,0.4632242
744,0.2233984,0.4657436
750,0.2253985,0.467929
756,0.2268965,0.4667308
762,0.228875,0.468516
768,0.2303984,0.4696202
774,0.2323985,0.4711603
780,0.234375,0.4720893
786,0.2358985,0.4720502
792,0.2377188,0.4730655
798,0.2394707,0.4748803
804,0.2413985,0.4744846
810,0.2433945,0.4764712
816,0.2448965,0.4759399
822,0.2468984,0.4791231
828,0.2487188,0.4799727
834,0.2503965,0.4797971
840,0.2523985,0.4818246
846,0.2538965,0.4806942
852,0.2558984,0.4821664
858,0.2573965,0.4824626
864,0.2593965,0.4862569
870,0.2613985,0.4853618
876,0.2628984,0.4857294
882,0.2648984,0.48704
888,0.266416,0.4868737
894,0.2683965,0.4872103
900,0.2702969,0.4886003
906,0.2718965,0.488963
912,0.2738985,0.4919014
918,0.2753965,0.4896855
924,0.2773965,0.4908795
930,0.2793984,0.4910173
936,0.2812598,0.4939966
942,0.2828985,0.4933178
948,0.2843984,0.492384
954,0.2863984,0.49436
960,0.2883984,0.4913397
966,0.2898985,0.4958195
972,0.2918965,0.4956354
978,0.2934199,0.4970759
984,0.2953984,0.4967871
990,0.2968965,0.493356
996,0.2988965,0.4972241
1002,0.3008965,0.4996408
1008,0.3023984,0.493838
1014,0.304,0.4993041
1020,0.3058985,0.4980638
1026,0.3083985,0.5010946
1032,0.3095,0.5024925
1038,0.3113984,0.5020026
1044,0.3133985,0.4996029
1050,0.3153985,0.5055721
1056,0.3168985,0.503456
1062,0.3188965,0.5021679
1068,0.3206582,0.5076488
1074,0.3223985,0.4990402
1080,0.3243985,0.5065006
1086,0.3258984,0.5063775
1092,0.3278984,0.504375
1098,0.3298574,0.5111297
1104,0.3313985,0.5086242
1110,0.3333985,0.504433
1116,0.3353867,0.5093133
1122,0.3364004,0.5106286
1128,0.3383985,0.5049599
1134,0.3403965,0.5089632
1140,0.3418984,0.5148711
1146,0.3433965,0.5070906
1152,0.3458984,0.5084957
1158,0.3473965,0.515682
1164,0.3493985,0.5130166
1170,0.3513555,0.510446
1176,0.3533984,0.5156284
1182,0.3543985,0.5168095
1188,0.3565606,0.5120783
1194,0.3588965,0.5175169
1200,0.3602598,0.5203297
1206,0.3618985,0.5132026
1212,0.3638985,0.5146023
1218,0.3656582,0.5180369
1224,0.3673965,0.5193281
1230,0.3689199,0.5190342
1236,0.3708985,0.516701
1242,0.3728985,0.5185913
1248,0.3743985,0.5246863
1254,0.3763984,0.5182676
1260,0.3783984,0.5226466
1266,0.3798985,0.5200063
1272,0.3818985,0.5206283
1278,0.3838965,0.5255654
1284,0.3851367,0.5203888
1290,0.3873965,0.5241277
1296,0.3893282,0.5302109
1302,0.3908985,0.5243585
1308,0.3928985,0.5272414
1314,0.3943985,0.5250903
1320,0.3959375,0.5258196
1326,0.3978965,0.5267935
1332,0.3998965,0.5293664
1338,0.4013985,0.5272044
1344,0.4028985,0.5285275
1350,0.4053985,0.5300979
1356,0.4068985,0.5280056
1362,0.4086973,0.5291263
1368,0.4103985,0.5308029
1374,0.4123985,0.5320308
1380,0.4143985,0.5325574
1386,0.4161582,0.53362
1392,0.4178555,0.5335398
1398,0.4197598,0.5340472
1404,0.4213985,0.5333942
1410,0.4233965,0.5347413
1416,0.4248965,0.5340059
1422,0.4267598,0.5329863
1428,0.4286778,0.5349625
1434,0.4303985,0.5336999
1440,0.4319395,0.5353057
1446,0.4338984,0.5365496
1452,0.4358985,0.5378585
1458,0.4374395,0.5376343
1464,0.4393985,0.5363387
1470,0.4413985,0.5389367
1476,0.4430567,0.5400319
1482,0.4446367,0.5381135
1488,0.4465977,0.5399782
1494,0.4483965,0.5403231
1500,0.4498985,0.5383332
1506,0.4518965,0.5392399
1512,0.4533965,0.5379745
1518,0.4553985,0.5399725
1524,0.4572168,0.5395297
1530,0.4588965,0.5401697
1536,0.4608965,0.5407937
1542,0.4628985,0.5417432
1548,0.4643965,0.5415377
1554,0.4663984,0.5421721
1560,0.4683965,0.5448887
1566,0.4698965,0.5422303
1572,0.4718965,0.5444414
1578,0.4738985,0.5454201
1584,0.4753965,0.5450782
1590,0.4769375,0.5435716
1596,0.4788965,0.5447521
1602,0.4806778,0.5446513
1608,0.4824258,0.5456532
1614,0.4843985,0.5445605
1620,0.4858985,0.544323
1626,0.4883965,0.5479566
1632,0.4896973,0.5455272
1638,0.4913965,0.545856
1644,0.4933985,0.5470768
1650,0.4951367,0.5471536
1656,0.4968985,0.5483893
1662,0.4988984,0.5493702
1668,0.5003965,0.5488353
1674,0.502,0.5471075
1680,0.5043985,0.5503846
1686,0.5058965,0.5502886
1692,0.5078984,0.5508618
1698,0.5098985,0.5519181
1704,0.5113984,0.5504904
1710,0.5129024,0.5496823
1716,0.5148985,0.5524203
1722,0.5168985,0.5523086
1728,0.5184981,0.552069
1734,0.5203965,0.5520197
1740,0.5222676,0.5532604
1746,0.5238965,0.5523957
1752,0.5258985,0.5548871
1758,0.5273965,0.5540817
1764,0.5293984,0.554608
1770,0.5308965,0.5540718
1776,0.5328965,0.5537396
1782,0.5348965,0.5567756
1788,0.5365039,0.5565544
1794,0.5383984,0.5561749
1800,0.5401172,0.5563869
1806,0.5418965,0.5562304
1812,0.5438985,0.5578567
1818,0.5455762,0.5584152
1824,0.5473965,0.5570695
1830,0.5488965,0.5571522
1836,0.5511777,0.5597883
1842,0.5528965,0.5601216
1848,0.5544258,0.5592384
1854,0.5563985,0.5597295
1860,0.5578985,0.5570594
1866,0.5598965,0.5589038
1872,0.5618985,0.5609224
1878,0.5634258,0.5601081
1884,0.5653985,0.5588518
1890,0.5673985,0.5616999
1896,0.56892,0.5613432
1902,0.5707598,0.5607064
1908,0.5728965,0.5628696
1914,0.5743985,0.5597373
1920,0.5763985,0.5623263
1926,0.5779395,0.5625106
1932,0.5799609,0.5647714
1938,0.5813828,0.5602261
1944,0.5829082,0.561201
1950,0.5853984,0.5645353
1956,0.5868965,0.5626177
1962,0.5888985,0.5647041
1968,0.5903965,0.5643142
1974,0.5923965,0.5652989
1980,0.594295,0.5648066
1986,0.5958984,0.5650362
1992,0.5974024,0.5637031
1998,0.5998965,0.5671698
2004,0.6013965,0.567438
2010,0.6028965,0.5659344
2016,0.6048985,0.5656751
2022,0.6068985,0.5674684
2028,0.6084004,0.5671436
2034,0.6103985,0.569626
2040,0.6124258,0.5712413
2046,0.6140606,0.569842
2052,0.6158985,0.5683414
2058,0.6173965,0.5688196
2064,0.6193985,0.5697759
2070,0.6213555,0.5703537
2076,0.6228965,0.5698569
2082,0.624875,0.5693678
2088,0.6263984,0.5703273
2094,0.6283965,0.5730124
2100,0.6303985,0.5722157
2106,0.6323887,0.5738903
2112,0.6338985,0.5737063
2118,0.6358965,0.5751661
2124,0.6373985,0.5741737
2130,0.6393965,0.57507
2136,0.6408985,0.5733654
2142,0.6428984,0.5769506
2148,0.6443985,0.5748548
2154,0.6461387,0.5729294
2160,0.6483985,0.5757005
2166,0.6498985,0.574679
2172,0.652,0.5785304
2178,0.6533965,0.5758539
2184,0.6553965,0.5757164
2190,0.6569551,0.5763348
2196,0.6588985,0.5758927
2202,0.6608282,0.576846
2208,0.6623985,0.5779467
2214,0.6643985,0.5790597
2220,0.6663985,0.5791398
2226,0.6678887,0.576958
2232,0.6698985,0.5802128
2238,0.6718965,0.5822738
2244,0.6734004,0.5803688
2250,0.6753965,0.5819752
2256,0.6768985,0.5802978
2262,0.6788985,0.5811456
2268,0.6804141,0.5818669
2274,0.6823985,0.581672
2280,0.6838984,0.5816895
2286,0.6858985,0.581508
2292,0.6878985,0.5843987
2298,0.6898965,0.5856515
2304,0.6913965,0.5831467
2310,0.6933985,0.5861502
2316,0.6946055,0.5821625
2322,0.6968965,0.5877101
2328,0.6984981,0.5856041
2334,0.7003984,0.5850608
2340,0.7023985,0.5870925
2346,0.7038965,0.5855569
2352,0.7054024,0.5846842
2358,0.7073965,0.5865983
2364,0.7093984,0.5889264
2370,0.7113575,0.587142
2376,0.7128965,0.5865571
2382,0.7148985,0.588668
2388,0.7163985,0.5870606
2394,0.7183985,0.5891564
2400,0.7203809,0.5903082
2406,0.7218985,0.5878483
2412,0.7238965,0.5900171
2418,0.7258984,0.5906662
2424,0.7273985,0.5899066
2430,0.7293985,0.5909746
2436,0.7308965,0.5903565
2442,0.7328985,0.5937349
2448,0.7343985,0.5905032
2454,0.7363692,0.590739
2460,0.7378965,0.5910085
2466,0.7398984,0.5916402
2472,0.7417657,0.5919306
2478,0.7438985,0.5942714
2484,0.7453985,0.5942608
2490,0.7469082,0.592443
2496,0.7488965,0.5939312
2502,0.7508985,0.5947027
2508,0.7523965,0.5938119
2514,0.7543965,0.5947429
2520,0.7563985,0.5959641
2526,0.7583945,0.5975326
2532,0.7597344,0.5949866
2538,0.7618868,0.5982265
2544,0.7633985,0.5980542
2550,0.7653985,0.5988245
2556,0.7668965,0.5977516
2562,0.7688985,0.5974286
2568,0.7706777,0.5990388
2574,0.7723985,0.597784
2580,0.7743984,0.599916
2586,0.7758985,0.5989682
2592,0.7778985,0.598776
2598,0.7793985,0.598549
2604,0.7813985,0.5995828
2610,0.7832676,0.6001286
2616,0.7848985,0.5998443
2622,0.7873985,0.6050423
2628,0.7883965,0.5990018
2634,0.7903985,0.6004935
2640,0.7923985,0.6035368
2646,0.7938985,0.6032362
2652,0.7958985,0.603458
2658,0.7978965,0.6068447
2664,0.7993985,0.6029246
2670,0.8013848,0.6036637
2676,0.8028965,0.6048791
2682,0.8048985,0.605468
2688,0.8068985,0.6084745
2694,0.8083965,0.605158
2700,0.8102344,0.6047592
2706,0.812252,0.6068663
2712,0.8138985,0.6067545
2718,0.8154376,0.6056606
2724,0.8173985,0.6064745
2730,0.8193985,0.6062801
2736,0.8208965,0.6076314
2742,0.8228984,0.6072181
2748,0.8244376,0.6064451
2754,0.8263985,0.6070303
2760,0.8279258,0.6052979
2766,0.8298985,0.6061574
2772,0.8318946,0.6071641
2778,0.8338965,0.6098246
2784,0.8353985,0.6095086
2790,0.8373965,0.6116198
2796,0.8384024,0.605347
2802,0.8408985,0.6110865
2808,0.8428985,0.6107553
2814,0.8439746,0.6069596
2820,0.8458984,0.6086395
2826,0.8478985,0.609412
2832,0.8498966,0.6115605
2838,0.8517188,0.6118785
2844,0.8535274,0.6125451
2850,0.8548985,0.610275
2856,0.8568965,0.6127587
2862,0.8588985,0.6127176
2868,0.8603985,0.6120891
2874,0.8623985,0.6115078
2880,0.86392,0.6124749
2886,0.8658965,0.6119264
2892,0.8678985,0.6135581
2898,0.8698985,0.6154612
2904,0.8713985,0.612994
2910,0.8733985,0.6159831
2916,0.8748985,0.6132394
2922,0.8768985,0.6156101
2928,0.8784024,0.6131397
2934,0.8803985,0.6137815
2940,0.8823965,0.6154529
2946,0.8838965,0.6151352
2952,0.8857969,0.6135381
2958,0.8873985,0.6140021
2964,0.8891582,0.6132635
2970,0.8912188,0.6156742
2976,0.8929063,0.6162999
2982,0.8948985,0.6161183
2988,0.8963965,0.6149142
2994,0.8983985,0.6174203
3000,0.9003985,0.6182672
3006,0.9023868,0.6200607
3012,0.9038985,0.6191499
3018,0.9056387,0.6194873
3024,0.9073985,0.6197013
3030,0.9093985,0.6216526
3036,0.9108965,0.6203259
3042,0.9128985,0.6223817
3048,0.9146368,0.6215613
3054,0.9163985,0.6220451
3060,0.9183985,0.6235051
3066,0.9198965,0.6213877
3072,0.9218555,0.6224796
3078,0.9233965,0.6218757
3084,0.9253887,0.6227125
3090,0.9268985,0.6216862
3096,0.9288985,0.6212215
3102,0.9308985,0.6248522
3108,0.9323985,0.6239882
3114,0.9343985,0.6253241
3120,0.9363985,0.6255376
3126,0.9378985,0.623184
3132,0.9394552,0.6243766
3138,0.9413965,0.624364
3144,0.9433985,0.6262577
3150,0.9453985,0.6270048
3156,0.9468985,0.628477
3162,0.9488985,0.6275642
3168,0.9508985,0.6284394
3174,0.9523965,0.6287348
3180,0.9543868,0.6276703
3186,0.9558985,0.6283587
3192,0.9578985,0.6284673
3198,0.9594102,0.6293111
3204,0.9613985,0.6286349
3210,0.9633985,0.6302251
3216,0.9648985,0.6287093
3222,0.9665,0.6285483
3228,0.9684981,0.630351
3234,0.9703985,0.6321154
3240,0.9723985,0.6330575
3246,0.9742305,0.6329633
3252,0.9758809,0.6319417
3258,0.9773965,0.6328871
3264,0.9793965,0.6349365
3270,0.9811974,0.6337539
3276,0.9828966,0.6337132
3282,0.9848985,0.6353858
3288,0.9863985,0.6348667
3294,0.9883984,0.6369963
3300,0.9898965,0.635318
3306,0.9918965,0.635038
3312,0.9938985,0.6370499
3318,0.9953965,0.6366712
3324,0.9973985,0.6383007
3330,0.9990352,0.6363387
3336,1.000897,0.6376204
3342,1.002898,0.6395345
3348,1.004398,0.6363292
3354,1.00642,0.6405146
3360,1.008399,0.6399819
3366,1.010213,0.6404517
3372,1.011899,0.6395287
3378,1.013897,0.6406886
3384,1.015399,0.6388226
3390,1.016899,0.6391124
3396,1.018897,0.6415324
3402,1.020795,0.6405016
3408,1.022795,0.6424354
3414,1.024398,0.6411703
3420,1.026399,0.643334
3426,1.027975,0.6432073
3432,1.029768,0.6418971
3438,1.031893,0.6450484
3444,1.033399,0.6423513
3450,1.035397,0.6447898
3456,1.036897,0.6438425
3462,1.038898,0.6448243
3468,1.040397,0.6448401
3474,1.042398,0.6464675
3480,1.044399,0.6486508
3486,1.04582,0.6436294
3492,1.047897,0.6481509
3498,1.049857,0.648228
3504,1.051399,0.6466661
3510,1.052967,0.6461674
3516,1.054897,0.6477721
3522,1.056898,0.6477056
3528,1.058397,0.6478571
3534,1.06,0.6459405
3540,1.062397,0.6494388
3546,1.063898,0.6486387
3552,1.065397,0.6469801
3558,1.067887,0.6501742
3564,1.069396,0.6514019
3570,1.071029,0.6497232
3576,1.072899,0.6494261
3582,1.074898,0.6505919
3588,1.076498,0.6511979
3594,1.078398,0.6502212
3600,1.080076,0.6510256
3606,1.082178,0.6539593
3612,1.083899,0.6535812
3618,1.085637,0.6533861
3624,1.087399,0.6539899
3630,1.088975,0.6531075
3636,1.090896,0.6526517
3642,1.092898,0.6532106
3648,1.094592,0.6546529
3654,1.096398,0.6535683
3660,1.098398,0.6549186
3666,1.099898,0.653481
3672,1.101897,0.6558001
3678,1.103397,0.6561262
3684,1.105399,0.6564974
3690,1.107328,0.6563662
3696,1.108896,0.6575222
3702,1.110397,0.6556022
3708,1.112475,0.6576026
3714,1.114397,0.6584085
3720,1.115926,0.656966
3726,1.117898,0.6576525
3732,1.119455,0.6564623
3738,1.121887,0.6601183
3744,1.123399,0.6587024
3750,1.125399,0.6614681
3756,1.127397,0.6619229
3762,1.128899,0.6606973
3768,1.130399,0.6592513
3774,1.132398,0.6606332
3780,1.1339,0.6596187
3786,1.135916,0.6614443
3792,1.137897,0.6630013
3798,1.139887,0.6629445
3804,1.141397,0.6635461
3810,1.143396,0.6644517
3816,1.1449,0.6612018
3822,1.146899,0.6635034
3828,1.148576,0.662679
3834,1.150398,0.6630263
3840,1.151897,0.662217
3846,1.153898,0.6629588
3852,1.155898,0.6652198
3858,1.157857,0.664823
3864,1.159858,0.6664692
3870,1.161035,0.6640356
3876,1.162975,0.6660722
3882,1.164899,0.6656112
3888,1.166396,0.664798
3894,1.168398,0.6670678
3900,1.170397,0.6684303
3906,1.171897,0.6671709
3912,1.173898,0.6675556
3918,1.175897,0.670637
3924,1.177398,0.6672815
3930,1.179399,0.668813
3936,1.181037,0.6693127
3942,1.182899,0.668284
3948,1.184529,0.6686049
3954,1.186399,0.6690012
3960,1.188098,0.6685467
3966,1.190398,0.672163
3972,1.191898,0.6691191
3978,1.193795,0.6707279
3984,1.195398,0.6701292
3990,1.196897,0.6689071
3996,1.198899,0.6706267
4002,1.200899,0.6717823
4008,1.202397,0.6709764
4014,1.204399,0.6711551
4020,1.205899,0.6708329
4026,1.207897,0.6713625
4032,1.209898,0.672215
4038,1.21184,0.6736456
4044,1.213398,0.6749278
4050,1.214998,0.6731753
4056,1.216898,0.6741549
4062,1.218899,0.6741633
4068,1.220899,0.6763923
4074,1.222156,0.6726478
4080,1.224398,0.6749184
4086,1.225899,0.6749542
4092,1.227898,0.6749311
4098,1.229439,0.6757573
4104,1.231398,0.6775526
4110,1.233398,0.676632
4116,1.234897,0.6766795
4122,1.236897,0.6761463
4128,1.238875,0.6779653
4134,1.240396,0.6782374
4140,1.242076,0.6763517
4146,1.24376,0.6745657
4152,1.245399,0.674256
4158,1.247504,0.677536
4164,1.249397,0.6785074
4170,1.250939,0.6771524
4176,1.252898,0.6782532
4182,1.254899,0.6806059
4188,1.256899,0.6807572
4194,1.258399,0.6802755
4200,1.259899,0.6773829
4206,1.261896,0.679781
4212,1.263828,0.6786773
4218,1.265399,0.6775534
4224,1.267373,0.6793864
4230,1.269397,0.6809565
4236,1.270897,0.6786512
4242,1.272899,0.6831293
4248,1.274398,0.6813968
4254,1.276397,0.6805509
4260,1.278396,0.6818998
4266,1.280158,0.6830217
4272,1.281678,0.6811643
4278,1.283897,0.6834295
4284,1.285398,0.6819173
4290,1.287316,0.6822259
4296,1.288897,0.6814421
4302,1.290898,0.6832336
4308,1.292397,0.6810511
4314,1.294399,0.6828991
4320,1.296399,0.6842695
4326,1.297897,0.683338
4332,1.29984,0.6837271
4338,1.30184,0.6848634
4344,1.303398,0.6856893
4350,1.305397,0.6859857
4356,1.306898,0.6825868
4362,1.308898,0.6851121
4368,1.310658,0.6857582
4374,1.312399,0.6849555
4380,1.31392,0.6849515
4386,1.315897,0.6849768
4392,1.317855,0.6854144
4398,1.319719,0.6865658
4404,1.321398,0.6859713
4410,1.323398,0.6874673
4416,1.324898,0.6882282
4422,1.326898,0.6877927
4428,1.328426,0.6874025
4434,1.330219,0.6856579
4440,1.3324,0.6881651
4446,1.333899,0.6866712
4452,1.335896,0.6893658
4458,1.337898,0.6888938
4464,1.339399,0.688927
4470,1.341393,0.6886576
4476,1.342898,0.6896627
4482,1.344869,0.6882769
4488,1.346397,0.6880013
4494,1.348398,0.688308
4500,1.350158,0.6886222
4506,1.351899,0.6890668
4512,1.353397,0.6885151
4518,1.355467,0.6898118
4524,1.357399,0.6902833
4530,1.358896,0.6882111
4536,1.360898,0.6899486
4542,1.362898,0.691061
4548,1.364897,0.6936443
4554,1.366398,0.691411
4560,1.368387,0.691763
4566,1.369899,0.6915181
4572,1.371897,0.692118
4578,1.373637,0.6921769
4584,1.375397,0.6925752
4590,1.377178,0.6914038
4596,1.378897,0.6916558
4602,1.380898,0.6923939
4608,1.382398,0.6927179
4614,1.384398,0.6933127
4620,1.386399,0.6938246
4626,1.387897,0.6918681
4632,1.389475,0.6920495
4638,1.391399,0.6929126
4644,1.393399,0.6935203
4650,1.395398,0.6947703
4656,1.396897,0.6949518
4662,1.398898,0.6940744
4668,1.400397,0.6936572
4674,1.402398,0.6946534
4680,1.404234,0.6943984
4686,1.405897,0.6932816
4692,1.407897,0.696347
4698,1.409684,0.6951616
4704,1.411399,0.6947773
4710,1.413399,0.6958565
4716,1.41494,0.6960437
4722,1.416897,0.6964335
4728,1.418398,0.6958826
4734,1.420398,0.6957258
4740,1.422398,0.6978732
4746,1.423898,0.6959208
4752,1.425899,0.6959339
4758,1.427768,0.6969557
4764,1.429399,0.6977034
4770,1.430899,0.6945205
4776,1.432899,0.697486
4782,1.434397,0.6953459
4788,1.436399,0.6965398
4794,1.438397,0.6981367
4800,1.439955,0.6962048
4806,1.441898,0.6957335
4812,1.443414,0.6963248
4818,1.445398,0.6955895
4824,1.447762,0.7004578
4830,1.449399,0.7001375
4836,1.450899,0.6975865
4842,1.452897,0.6987508
4848,1.454399,0.697123
4854,1.456397,0.6981757
4860,1.457897,0.6973141
4866,1.459897,0.6978907
4872,1.461617,0.6977996
4878,1.4635,0.6997816
4884,1.464898,0.6974024
4890,1.467399,0.7005556
4896,1.468899,0.6992795
4902,1.470887,0.6993512
4908,1.472397,0.7001163
4914,1.474398,0.7009902
4920,1.475897,0.6990756
4926,1.478137,0.701516
4932,1.479897,0.700321
4938,1.481398,0.7000074
4944,1.483399,0.7028311
4950,1.485399,0.7016179
4956,1.486899,0.6991265
4962,1.488899,0.701533
4968,1.490396,0.7008364
4974,1.492399,0.7017978
4980,1.49432,0.7017434
4986,1.495898,0.7014766
4992,1.497897,0.7042161
4998,1.499398,0.7007365
5004,1.501399,0.7029779
5010,1.502898,0.7019533
5016,1.504899,0.7015212
5022,1.50684,0.7022801
5028,1.508397,0.7024638
5034,1.510399,0.7039616
5040,1.511897,0.7032152
5046,1.514393,0.7046804
5052,1.515898,0.704708
5058,1.517889,0.7040752
5064,1.519133,0.7015642
5070,1.521399,0.7042706
5076,1.523395,0.7055131
5082,1.524899,0.7054246
5088,1.526899,0.7061418
5094,1.528397,0.7039216
5100,1.530398,0.7073113
5106,1.531898,0.7046043
5112,1.533895,0.7039449
5118,1.535856,0.7054557
5124,1.537398,0.7067437
5130,1.539328,0.704704
5136,1.541061,0.7063007
5142,1.542899,0.7055444
5148,1.544402,0.705228
5154,1.546399,0.7058076
5160,1.548076,0.7049623
5166,1.549897,0.7051492
5172,1.551898,0.7064018
5178,1.553397,0.7048855
5184,1.555397,0.7063488
5190,1.557399,0.7068332
5196,1.558897,0.7049186
5202,1.560897,0.7081835
5208,1.562399,0.7064788
5214,1.564397,0.7076612
5220,1.565897,0.7053515
5226,1.567897,0.7069574
5232,1.569897,0.7078647
5238,1.571881,0.7088072
5244,1.573398,0.7082973
5250,1.574897,0.7074648
5256,1.576898,0.7077959
5262,1.578897,0.7096375
5268,1.580836,0.7085698
5274,1.5824,0.7074279
5280,1.584399,0.7090609
5286,1.585897,0.7071531
5292,1.587898,0.7075719
5298,1.589857,0.709511
5304,1.591398,0.7101296
5310,1.593399,0.7084255
5316,1.59526,0.7100753
5322,1.596897,0.709696
5328,1.598397,0.708712
5334,1.600399,0.7093025
5340,1.602397,0.7103994
5346,1.604393,0.7116362
5352,1.605898,0.7119509
5358,1.607399,0.7094117
5364,1.609398,0.7095571
5370,1.61126,0.7109085
5376,1.613397,0.7128122
5382,1.614897,0.7105554
5388,1.616399,0.7102148
5394,1.618881,0.7138472
5400,1.620399,0.7110696
5406,1.621967,0.7118111
5412,1.623899,0.7118322
5418,1.625426,0.7111083
5424,1.627398,0.7116468
5430,1.629398,0.7127863
5436,1.630897,0.710631
5442,1.632402,0.7101114
5448,1.634398,0.7098886
5454,1.636399,0.7111713
5460,1.638399,0.7131578
5466,1.639897,0.7106413
5472,1.641527,0.7112042
5478,1.643898,0.7137351
5484,1.645398,0.712055
5490,1.647398,0.7146173
5496,1.648897,0.7125344
5502,1.651379,0.7174492
5508,1.652397,0.7138152
5514,1.654399,0.7128033
5520,1.656117,0.7128863
5526,1.657897,0.7129225
5532,1.659899,0.7150809
5538,1.661897,0.7147459
5544,1.663397,0.7132914
5550,1.664967,0.713024
5556,1.666897,0.7122284
5562,1.668898,0.7137488
5568,1.67076,0.7148994
5574,1.672397,0.7158754
5580,1.67432,0.7146267
5586,1.675975,0.7152326
5592,1.677899,0.7153174
5598,1.6795,0.7148175
5604,1.681399,0.7163562
5610,1.683398,0.7151947
5616,1.684898,0.715086
5622,1.686898,0.7156149
5628,1.688899,0.7196012
5634,1.690297,0.7139024
5640,1.692295,0.7157789
5646,1.693975,0.7162479
5652,1.695858,0.7149616
5658,1.697828,0.7170674
5664,1.699397,0.715661
5670,1.701398,0.7162512
5676,1.702897,0.7161065
5682,1.704898,0.716102
5688,1.706467,0.7167237
5694,1.708397,0.7175336
5700,1.709897,0.7154804
5706,1.71193,0.7183965
5712,1.713475,0.7157501
5718,1.715399,0.7158064
5724,1.717399,0.7166002
5730,1.719029,0.7171544
5736,1.720897,0.7170955
5742,1.722898,0.7188
5748,1.724899,0.7191308
5754,1.726397,0.719099
5760,1.728399,0.7182558
5766,1.72994,0.7187991
5772,1.731397,0.7164152
5778,1.733397,0.7177523
5784,1.735399,0.7200208
5790,1.737369,0.7188531
5796,1.738899,0.7192643
5802,1.740898,0.7196196
5808,1.742897,0.7221968
5814,1.744398,0.7199209
5820,1.746399,0.7200797
5826,1.747899,0.718087
5832,1.749897,0.7203047
5838,1.751897,0.7214465
5844,1.753397,0.7195391
5850,1.755399,0.7217358
5856,1.757158,0.7212179
5862,1.758898,0.7216713
5868,1.760857,0.7217081
5874,1.762398,0.7198456
5880,1.764268,0.7205594
5886,1.766363,0.7223696
5892,1.767899,0.7213148
5898,1.769399,0.7203391
5904,1.771875,0.7241281
5910,1.772574,0.7169699
5916,1.774899,0.7205275
5922,1.776899,0.7205215
5928,1.778857,0.7221093
5934,1.780398,0.7220303
5940,1.782268,0.7214342
5946,1.783697,0.7193846
5952,1.785899,0.7219225
5958,1.787399,0.7204657
5964,1.789397,0.7213523
5970,1.791381,0.7225401
5976,1.792899,0.7222034
5982,1.794897,0.7232374
5988,1.79644,0.7225404
5994,1.798398,0.7230496
6000,1.800037,0.7219933
6006,1.80226,0.7251157
6012,1.803537,0.7219573
6018,1.805617,0.7239286
6024,1.807877,0.7260271
6030,1.809399,0.7257966
6036,1.810897,0.7247787
6042,1.812402,0.7210056
6048,1.8145,0.7242908
6054,1.816399,0.7238955
6060,1.817897,0.722973
6066,1.820117,0.7261662
6072,1.821899,0.7252553
6078,1.823899,0.7272596
6084,1.825117,0.7230403
6090,1.827414,0.727603
6096,1.828899,0.7237725
6102,1.830899,0.7258021
6108,1.832137,0.7218989
6114,1.834399,0.7243185
6120,1.836234,0.7254136
6126,1.837768,0.723922
6132,1.839897,0.7260231
6138,1.841697,0.7262771
6144,1.843399,0.7255197
6150,1.845397,0.7287594
6156,1.846899,0.7264833
6162,1.848899,0.7258782
6168,1.850397,0.7261194
6174,1.852399,0.7258758
6180,1.854398,0.7280124
6186,1.856397,0.7294568
6192,1.857397,0.7246863
6198,1.859899,0.7283809
6204,1.861397,0.7270411
6210,1.862975,0.7262973
6216,1.864899,0.7275961
6222,1.866897,0.7288698
6228,1.868399,0.7261588
6234,1.869918,0.7260957
6240,1.872397,0.730818
6246,1.873899,0.7279661
6252,1.875898,0.7296878
6258,1.877899,0.7292402
6264,1.879399,0.7274283
6270,1.881397,0.7297221
6276,1.883397,0.7315685
6282,1.884402,0.7263812
6288,1.886897,0.7323924
6294,1.888399,0.7291488
6300,1.890397,0.7301811
6306,1.891899,0.7289672
6312,1.893527,0.7275677
6318,1.895397,0.7285996
6324,1.897719,0.7310434
6330,1.899399,0.7304941
6336,1.900897,0.7295133
6342,1.90284,0.7289529
6348,1.904397,0.7287068
6354,1.906399,0.7282161
6360,1.908035,0.7285402
6366,1.909899,0.7287624
6372,1.911898,0.7303659
6378,1.913734,0.7307025
6384,1.915398,0.7286043
6390,1.916897,0.727923
6396,1.918899,0.7294636
6402,1.921295,0.7342607
6408,1.922897,0.7332202
6414,1.924399,0.7307548
6420,1.926399,0.732389
6426,1.928375,0.7330403
6432,1.9295,0.7296556
6438,1.931875,0.7321209
6444,1.933398,0.7317579
6450,1.93492,0.7302397
6456,1.936898,0.7308752
6462,1.938899,0.7320302
6468,1.940899,0.7332445
6474,1.942399,0.732226
6480,1.944397,0.7334312
6486,1.946387,0.7345257
6492,1.947397,0.7293125
6498,1.94984,0.7336591
6504,1.951397,0.7307463
6510,1.953396,0.7339817
6516,1.954897,0.7326151
6522,1.956898,0.7327524
6528,1.958399,0.7321509
6534,1.960399,0.7321932
6540,1.961899,0.7312645
6546,1.963897,0.7324976
6552,1.965658,0.7317343
6558,1.967617,0.733426
6564,1.969398,0.7339635
6570,1.971234,0.7332277
6576,1.972898,0.7345281
6582,1.974408,0.732004
6588,1.976398,0.7329447
6594,1.978387,0.7327619
6600,1.980399,0.7350071
6606,1.981898,0.7327908
6612,1.983399,0.7312272
6618,1.985399,0.7326509
6624,1.987399,0.7358107
6630,1.988926,0.73321
6636,1.990897,0.7349926
6642,1.992795,0.7337341
6648,1.994397,0.7336361
6654,1.996295,0.7334573
6660,1.9979,0.7333991
6666,1.999899,0.7348478
6672,2.001899,0.7349643
6678,2.003896,0.7367314
6684,2.005897,0.7384622
6690,2.007399,0.7366292
6696,2.008897,0.7334055
6702,2.010899,0.7356719
6708,2.012637,0.735986
6714,2.014869,0.737969
6720,2.016397,0.7374926
6726,2.017897,0.7361071
6732,2.019408,0.7344053
6738,2.021399,0.7357637
6744,2.023399,0.7363563
6750,2.025397,0.7360371
6756,2.026896,0.7362214
6762,2.028897,0.7360129
6768,2.030397,0.7357234
6774,2.032398,0.7365949
6780,2.033899,0.7351847
6786,2.035897,0.7365525
6792,2.037891,0.735584
6798,2.039438,0.7363081
6804,2.041399,0.7354226
6810,2.043295,0.7372268
6816,2.044899,0.7367617
6822,2.046881,0.7368423
6828,2.04844,0.7368047
6834,2.050397,0.7368954
6840,2.051918,0.736613
6846,2.053899,0.7378644
6852,2.055897,0.7382777
6858,2.057598,0.7378965
6864,2.059399,0.7383214
6870,2.061397,0.740278
6876,2.063399,0.7398391
6882,2.064898,0.7381989
6888,2.066897,0.7398564
6894,2.068397,0.7384262
6900,2.07,0.7373258
6906,2.071897,0.7386258
6912,2.073797,0.7378933
6918,2.075897,0.739276
6924,2.077399,0.7392593
6930,2.078897,0.7368766
6936,2.080899,0.7384076
6942,2.082881,0.7376263
6948,2.084403,0.7368236
6954,2.086397,0.7394055
6960,2.088398,0.7397631
6966,2.089897,0.7377833
6972,2.091898,0.7388032
6978,2.093399,0.7382503
6984,2.095397,0.740598
6990,2.096998,0.7386549
6996,2.099387,0.7418898
7002,2.100899,0.7410146
7008,2.102897,0.7413868
7014,2.104398,0.7383322
7020,2.106399,0.7405341
7026,2.108268,0.7410454
7032,2.109795,0.7389749
7038,2.111397,0.740539
7044,2.113399,0.7401288
7050,2.115396,0.7404134
7056,2.116899,0.7401127
7062,2.118896,0.7415034
7068,2.120414,0.7406972
7074,2.122399,0.7407948
7080,2.124234,0.7401375
7086,2.126295,0.7418731
7092,2.127397,0.7380047
7098,2.129399,0.7399386
7104,2.131398,0.7414237
7110,2.133397,0.7418287
7116,2.134897,0.7405632
7122,2.136899,0.741491
7128,2.13832,0.7375591
7134,2.140399,0.741034
7140,2.141896,0.7397005
7146,2.143897,0.7416937
7152,2.145899,0.741314
7158,2.147398,0.7393878
7164,2.149399,0.7409812
7170,2.15134,0.7420414
7176,2.152924,0.74288
7182,2.154899,0.7421122
7188,2.156813,0.7419516
7194,2.158399,0.7427109
7200,2.16001,0.7415726
7206,2.161899,0.7423576
7212,2.163898,0.741075
7218,2.165397,0.7407479
7224,2.167295,0.7408704
7230,2.169393,0.7425474
7236,2.170897,0.7416134
7242,2.172881,0.7425715
7248,2.174398,0.7424043
7254,2.176399,0.7418481
7260,2.178399,0.7461358
7266,2.180219,0.7441626
7272,2.181899,0.7425374
7278,2.183397,0.7425641
7284,2.185399,0.743375
7290,2.18734,0.7426648
7296,2.189399,0.7443958
7302,2.190397,0.7405629
7308,2.192899,0.7447301
7314,2.194399,0.7433344
7320,2.196397,0.744043
7326,2.198295,0.7446198
7332,2.199897,0.7437609
7338,2.201897,0.7447093
7344,2.203398,0.7440998
7350,2.205399,0.7433992
7356,2.206955,0.7439961
7362,2.208467,0.741868
7368,2.210896,0.7447869
7374,2.212399,0.7430564
7380,2.214399,0.7448651
7386,2.216356,0.7460901
7392,2.217899,0.7434008
7398,2.219398,0.7430198
7404,2.221399,0.7432576
7410,2.223027,0.7435905
7416,2.224897,0.7436233
7422,2.226397,0.7424733
7428,2.228897,0.744211
7434,2.230399,0.7433342
7440,2.232399,0.7439087
7446,2.233899,0.7420632
7452,2.235898,0.7443805
7458,2.237399,0.7409386
7464,2.239398,0.7442289
7470,2.241399,0.7450705
7476,2.242898,0.7446791
7482,2.244899,0.7446634
7488,2.246397,0.7423455
7494,2.248399,0.7446852
7500,2.250399,0.7444608
7506,2.251899,0.7437845
7512,2.253899,0.7449426
7518,2.255399,0.7432786
7524,2.257399,0.7437764
7530,2.259398,0.7463425
7536,2.260897,0.7443114
7542,2.262898,0.7453775
7548,2.2644,0.7450684
7554,2.266397,0.7434399
7560,2.268399,0.7447937
7566,2.269897,0.7455032
7572,2.271397,0.7430913
7578,2.273399,0.7436742
7584,2.275397,0.7454876
7590,2.276896,0.7431759
7596,2.278897,0.7446328
7602,2.280797,0.7443104
7608,2.282899,0.7470194
7614,2.284399,0.7468082
7620,2.286397,0.7472247
7626,2.287899,0.7464647
7632,2.289899,0.7465726
7638,2.291397,0.7463667
7644,2.292908,0.7436569
7650,2.294899,0.744088
7656,2.296899,0.7472241
7662,2.298898,0.7469221
7668,2.300897,0.747973
7674,2.30232,0.7455685
7680,2.303902,0.7453256
7686,2.305897,0.7462492
7692,2.307899,0.7467306
7698,2.309899,0.747754
7704,2.311399,0.7457941
7710,2.312896,0.7440167
7716,2.314898,0.7472746
7722,2.316899,0.7461192
7728,2.318887,0.7473393
7734,2.320887,0.7497854
7740,2.322397,0.7476498
7746,2.324399,0.7495624
7752,2.325899,0.7467816
7758,2.327899,0.7481972
7764,2.329399,0.7472063
7770,2.331381,0.7474199
7776,2.333399,0.7493468
7782,2.334898,0.7492954
7788,2.336397,0.7473552
7794,2.338397,0.7466711
7800,2.340399,0.748386
7806,2.342098,0.7492557
7812,2.343899,0.7477973
7818,2.345896,0.7504349
7824,2.347178,0.7465072
7830,2.349268,0.7472978
7836,2.350899,0.7473078
7842,2.352899,0.7493457
7848,2.354438,0.7475768
7854,2.356076,0.7455572
7860,2.358398,0.7506462
7866,2.359897,0.7476381
7872,2.361899,0.7487463
7878,2.363397,0.7479466
7884,2.365399,0.7462388
7890,2.367399,0.7493014
7896,2.368896,0.747108
7902,2.370898,0.7485278
7908,2.372897,0.7498218
7914,2.374397,0.7496253
7920,2.376399,0.7501882
7926,2.377897,0.7483886
7932,2.379897,0.7495257
7938,2.381439,0.7486053
7944,2.383399,0.7484972
7950,2.384938,0.7476747
7956,2.386899,0.7462195
7962,2.388397,0.7457483
7968,2.390397,0.7481536
7974,2.392399,0.7475002
7980,2.394297,0.7483383
7986,2.395897,0.7482737
7992,2.397898,0.7483892
7998,2.399899,0.7498076
8004,2.401399,0.748085
8010,2.402897,0.7483674
8016,2.404896,0.7499567
8022,2.406399,0.7461995
8028,2.408576,0.7496352
8034,2.410398,0.7503603
8040,2.412121,0.7489457
8046,2.413898,0.7493442
8052,2.415893,0.7497948
8058,2.417426,0.7493859
8064,2.419399,0.7487962
8070,2.420967,0.7487527
8076,2.422897,0.7478246
8082,2.424397,0.7472777
8088,2.426897,0.7512208
8094,2.428438,0.751313
8100,2.429903,0.7489366
8106,2.431897,0.7486746
8111,2.433397,0.7504742